File: data_files/transmittance.csv
Wavelength (nm),Transmittance ITO (%),Transmittance CdS (%),Transmittance Si (%),Transmittance GaAs (%)
300,0.098,0.084,-0.003,0.075
301,0.097,0.083,-0.004,0.078
302,0.102,0.088,-0.004,0.077
303,0.102,0.089,-0.001,0.082
304,0.104,0.088,0.002,0.077
305,0.093,0.086,0.003,0.082
306,0.093,0.084,0.001,0.079
307,0.093,0.087,-0.001,0.08
308,0.099,0.09,-0.002,0.077
309,0.1,0.089,-0.002,0.082
310,0.095,0.088,-0.001,0.077
311,0.101,0.084,0,0.073
312,0.105,0.085,0,0.068
313,0.114,0.086,0,0.074
314,0.115,0.09,0,0.079
315,0.118,0.093,0,0.08
316,0.121,0.091,0,0.079
317,0.123,0.092,0,0.078
318,0.131,0.089,0.001,0.076
319,0.148,0.095,0,0.071
320,0.16,0.092,0,0.076
321,0.176,0.094,-0.001,0.083
322,0.192,0.099,0,0.088
323,0.219,0.102,-0.002,0.081
324,0.245,0.101,0,0.075
325,0.274,0.09,0,0.074
326,0.306,0.089,0.001,0.075
327,0.344,0.087,-0.001,0.078
328,0.39,0.09,0,0.076
329,0.447,0.088,0,0.079
330,0.518,0.089,0,0.077
331,0.595,0.087,0,0.078
332,0.677,0.09,-0.001,0.074
333,0.771,0.09,0,0.075
334,0.872,0.091,0,0.076
335,0.984,0.09,0,0.077
336,1.117,0.093,0,0.076
337,1.271,0.092,0,0.072
338,1.45,0.094,-0.001,0.071
339,1.637,0.092,-0.001,0.073
340,1.841,0.097,0,0.078
341,2.043,0.097,0.001,0.078
342,2.266,0.096,0.002,0.077
343,2.512,0.092,0.001,0.079
344,2.792,0.091,0.001,0.077
345,3.08,0.094,0,0.077
346,3.387,0.096,0.001,0.074
347,3.733,0.095,0.001,0.076
348,4.086,0.094,0.001,0.078
349,4.46,0.094,0,0.078
350,4.838,0.096,0.001,0.079
351,5.265,0.095,0.001,0.078
352,5.715,0.094,0.001,0.08
353,6.158,0.095,0,0.079
354,6.624,0.094,0,0.08
355,7.087,0.096,0,0.079
356,7.602,0.095,0,0.082
357,8.099,0.097,0,0.081
358,8.635,0.098,0,0.082
359,9.232,0.097,0,0.082
360,9.825,0.094,-0.001,0.083
361,10.462,0.093,0,0.082
362,11.075,0.092,0,0.083
363,11.742,0.092,0.001,0.083
364,12.392,0.094,0,0.084
365,13.089,0.097,0,0.082
366,13.806,0.098,0,0.086
367,14.567,0.097,0,0.087
368,15.38,0.093,0,0.089
369,16.123,0.093,0,0.086
370,16.966,0.093,0,0.083
371,17.732,0.097,0,0.083
372,18.741,0.096,0,0.087
373,19.656,0.097,0.001,0.092
374,20.584,0.093,0.001,0.094
375,21.391,0.095,0.001,0.094
376,22.23,0.096,0,0.095
377,23.107,0.097,0,0.096
378,23.909,0.096,0,0.099
379,24.655,0.096,0,0.101
380,25.371,0.096,0,0.102
381,26.121,0.097,0,0.103
382,26.839,0.096,0,0.103
383,27.492,0.095,-0.001,0.104
384,28.155,0.095,0,0.106
385,28.77,0.096,0,0.108
386,29.453,0.097,0,0.109
387,30.078,0.098,0,0.11
388,30.754,0.097,0,0.111
389,31.38,0.096,0,0.112
390,32.075,0.095,0,0.111
391,32.809,0.096,0,0.111
392,33.547,0.097,0,0.112
393,34.333,0.097,-0.001,0.113
394,35.193,0.097,-0.001,0.113
395,36.179,0.096,-0.001,0.114
396,37.139,0.096,0,0.113
397,38.155,0.095,0,0.115
398,39.236,0.095,0,0.116
399,40.401,0.095,-0.001,0.117
400,41.581,0.096,-0.001,0.118
401,42.716,0.098,-0.001,0.118
402,43.909,0.098,0,0.119
403,45.072,0.096,-0.001,0.119
404,46.271,0.096,0,0.119
405,47.416,0.096,0,0.12
406,48.568,0.097,0,0.121
407,49.686,0.096,-0.001,0.122
408,50.75,0.098,-0.001,0.123
409,51.702,0.098,-0.001,0.124
410,52.558,0.098,-0.001,0.124
411,53.31,0.096,-0.001,0.126
412,53.949,0.095,0,0.125
413,54.466,0.095,0,0.126
414,54.814,0.095,0,0.126
415,55.097,0.096,0,0.127
416,55.306,0.096,-0.001,0.127
417,55.531,0.099,0,0.126
418,55.679,0.099,0,0.125
419,55.732,0.099,0,0.127
420,55.817,0.099,0,0.129
421,55.828,0.099,0,0.132
422,55.894,0.101,0,0.133
423,55.857,0.1,-0.001,0.134
424,55.892,0.099,0,0.136
425,55.887,0.096,-0.001,0.136
426,55.935,0.095,-0.001,0.137
427,56.041,0.096,-0.001,0.138
428,56.221,0.097,0,0.138
429,56.455,0.096,0.001,0.14
430,56.723,0.095,0,0.138
431,57.08,0.096,-0.001,0.139
432,57.48,0.096,0,0.139
433,58.004,0.098,0,0.141
434,58.598,0.097,0,0.142
435,59.275,0.098,-0.001,0.142
436,59.931,0.097,0,0.144
437,60.659,0.097,0,0.145
438,61.464,0.096,0,0.145
439,62.375,0.096,0,0.145
440,63.327,0.097,0,0.145
441,64.312,0.099,0,0.145
442,65.329,0.099,0,0.145
443,66.356,0.099,0,0.147
444,67.433,0.097,0,0.149
445,68.532,0.097,0,0.15
446,69.66,0.096,0,0.148
447,70.79,0.097,-0.001,0.149
448,71.875,0.096,-0.001,0.15
449,72.891,0.098,0,0.152
450,73.861,0.098,0,0.153
451,74.75,0.099,0,0.153
452,75.636,0.097,0,0.154
453,76.429,0.097,0,0.153
454,77.147,0.097,0,0.154
455,77.711,0.098,0,0.153
456,78.149,0.097,0,0.153
457,78.527,0.097,-0.001,0.154
458,78.802,0.095,0,0.156
459,78.972,0.096,0,0.158
460,79.041,0.095,0,0.16
461,79.022,0.095,0,0.162
462,78.925,0.096,0,0.161
463,78.72,0.096,0,0.162
464,78.449,0.097,0,0.161
465,78.163,0.098,-0.001,0.162
466,77.805,0.099,-0.001,0.163
467,77.407,0.098,-0.001,0.164
468,76.902,0.098,-0.001,0.165
469,76.372,0.098,0,0.165
470,75.862,0.098,0,0.165
471,75.357,0.098,-0.001,0.164
472,74.927,0.099,-0.001,0.165
473,74.444,0.099,-0.001,0.166
474,73.953,0.099,-0.001,0.168
475,73.503,0.097,-0.001,0.167
476,73.083,0.096,-0.001,0.167
477,72.719,0.096,-0.001,0.166
478,72.412,0.097,-0.001,0.167
479,72.155,0.098,-0.001,0.168
480,71.981,0.098,-0.001,0.168
481,71.811,0.097,0,0.169
482,71.667,0.096,0,0.169
483,71.569,0.096,-0.001,0.17
484,71.516,0.096,-0.001,0.17
485,71.553,0.096,0,0.17
486,71.623,0.096,0,0.17
487,71.78,0.097,0,0.17
488,71.981,0.097,0,0.17
489,72.249,0.097,0,0.17
490,72.545,0.097,0,0.171
491,72.897,0.096,0,0.171
492,73.343,0.095,0,0.172
493,73.737,0.095,0,0.172
494,74.236,0.097,0,0.173
495,74.723,0.097,0,0.173
496,75.323,0.098,-0.001,0.172
497,75.977,0.098,-0.001,0.173
498,76.664,0.098,0,0.174
499,77.352,0.097,0,0.175
500,77.98,0.098,0,0.175
501,78.621,0.101,-0.001,0.175
502,79.353,0.11,-0.001,0.175
503,80.118,0.126,-0.001,0.174
504,80.934,0.156,0,0.174
505,81.663,0.209,-0.001,0.174
506,82.448,0.304,-0.001,0.175
507,83.193,0.464,-0.001,0.176
508,83.956,0.722,-0.001,0.177
509,84.67,1.098,-0.001,0.176
510,85.355,1.624,0,0.177
511,86.009,2.331,0,0.177
512,86.639,3.223,0,0.179
513,87.232,4.327,0,0.177
514,87.827,5.619,0,0.176
515,88.324,7.067,0,0.175
516,88.753,8.618,0,0.177
517,89.072,10.284,0,0.178
518,89.373,12.114,0,0.179
519,89.666,14.106,0,0.178
520,89.873,16.267,0,0.179
521,90.018,18.549,0,0.179
522,90.073,20.878,0,0.178
523,90.123,23.128,0,0.177
524,90.089,25.12,0,0.178
525,89.999,26.794,0,0.18
526,89.872,28.142,0,0.181
527,89.678,29.299,0,0.18
528,89.41,30.358,0,0.178
529,89.064,31.555,0,0.177
530,88.706,33.012,0,0.178
531,88.307,34.911,0,0.179
532,87.9,37.142,0,0.181
533,87.362,39.706,0,0.182
534,86.892,42.323,-0.001,0.182
535,86.412,44.782,-0.001,0.181
536,86.011,46.721,0,0.179
537,85.473,48.017,0,0.181
538,84.9,48.555,0,0.181
539,84.304,48.471,0,0.182
540,83.751,47.974,0,0.181
541,83.188,47.331,0,0.18
542,82.624,46.804,0,0.181
543,82.082,46.58,0,0.181
544,81.557,46.831,0,0.182
545,81.114,47.713,0,0.181
546,80.657,49.183,0,0.181
547,80.215,51.239,-0.001,0.18
548,79.749,53.726,-0.001,0.182
549,79.311,56.503,-0.001,0.183
550,78.873,59.202,-0.001,0.183
551,78.513,61.593,-0.001,0.182
552,78.12,63.322,0,0.182
553,77.835,64.326,0,0.183
554,77.523,64.44,0,0.183
555,77.311,63.813,-0.001,0.183
556,77.088,62.558,-0.001,0.183
557,76.888,60.92,-0.001,0.184
558,76.693,59.154,-0.001,0.184
559,76.547,57.553,-0.001,0.185
560,76.401,56.306,-0.001,0.184
561,76.349,55.575,-0.001,0.184
562,76.286,55.402,-0.001,0.185
563,76.257,55.822,0,0.186
564,76.229,56.91,0,0.186
565,76.207,58.588,-0.001,0.185
566,76.249,60.822,-0.001,0.184
567,76.294,63.367,-0.001,0.183
568,76.444,66.147,0,0.183
569,76.592,68.887,-0.001,0.183
570,76.786,71.385,-0.001,0.184
571,76.942,73.34,-0.001,0.184
572,77.094,74.597,-0.001,0.186
573,77.287,75.113,0,0.186
574,77.557,74.801,-0.001,0.186
575,77.835,73.697,-0.001,0.185
576,78.109,71.975,0,0.185
577,78.328,69.869,0,0.186
578,78.629,67.669,0,0.185
579,78.964,65.494,0,0.185
580,79.344,63.605,0,0.185
581,79.735,62.108,0,0.185
582,80.154,61.065,0,0.186
583,80.553,60.494,-0.001,0.185
584,80.938,60.454,-0.001,0.186
585,81.302,60.937,-0.001,0.185
586,81.707,61.95,-0.001,0.186
587,82.097,63.422,-0.001,0.186
588,82.502,65.374,0,0.185
589,82.952,67.691,-0.001,0.185
590,83.436,70.2,-0.001,0.184
591,83.885,72.77,-0.001,0.184
592,84.302,75.288,-0.001,0.184
593,84.711,77.63,0,0.184
594,85.15,79.546,0,0.185
595,85.56,80.882,0,0.185
596,85.974,81.533,0,0.185
597,86.361,81.517,-0.001,0.186
598,86.762,80.79,-0.001,0.186
599,87.121,79.428,-0.001,0.188
600,87.5,77.623,-0.001,0.188
601,87.814,75.503,-0.001,0.188
602,88.115,73.24,-0.001,0.188
603,88.37,70.952,-0.001,0.188
604,88.65,68.82,-0.001,0.188
605,88.959,66.969,0,0.188
606,89.221,65.401,0,0.187
607,89.481,64.229,0,0.187
608,89.704,63.477,-0.001,0.188
609,89.894,63.169,-0.001,0.188
610,90.026,63.279,-0.001,0.188
611,90.139,63.822,0,0.188
612,90.219,64.772,-0.001,0.189
613,90.334,66.163,-0.001,0.19
614,90.346,67.849,-0.001,0.19
615,90.407,69.859,0,0.19
616,90.397,72.073,0,0.188
617,90.434,74.451,0,0.187
618,90.399,76.841,-0.001,0.188
619,90.293,79.117,0,0.189
620,90.181,81.223,0,0.189
621,90.095,82.99,0,0.188
622,90.025,84.32,0,0.188
623,89.845,85.058,0,0.189
624,89.603,85.219,-0.001,0.189
625,89.365,84.812,-0.001,0.19
626,89.118,83.808,-0.001,0.191
627,88.899,82.362,-0.001,0.19
628,88.638,80.481,-0.001,0.191
629,88.397,78.484,0,0.191
630,88.145,76.363,0,0.191
631,87.87,74.232,0,0.19
632,87.593,72.118,0,0.19
633,87.272,70.195,0,0.191
634,86.936,68.529,0,0.192
635,86.583,67.169,0,0.191
636,86.242,66.069,-0.001,0.19
637,85.916,65.337,-0.001,0.19
638,85.556,64.887,-0.001,0.192
639,85.158,64.786,-0.001,0.192
640,84.776,64.988,0,0.192
641,84.469,65.56,0,0.191
642,84.155,66.455,0,0.192
643,83.796,67.6,-0.001,0.19
644,83.388,69.026,-0.001,0.19
645,83.047,70.708,-0.001,0.189
646,82.735,72.615,-0.001,0.19
647,82.447,74.628,-0.001,0.19
648,82.151,76.764,-0.001,0.191
649,81.851,78.909,-0.001,0.191
650,81.524,81.023,-0.001,0.19
651,81.164,82.901,0,0.19
652,80.877,84.557,0,0.191
653,80.614,85.909,-0.001,0.193
654,80.325,86.834,0,0.194
655,79.994,87.325,0,0.195
656,79.69,87.364,0,0.195
657,79.494,86.961,-0.001,0.194
658,79.317,86.158,0,0.193
659,79.12,84.982,0,0.193
660,78.844,83.399,-0.001,0.193
661,78.63,81.604,0,0.195
662,78.431,79.595,0,0.194
663,78.288,77.626,0,0.195
664,78.098,75.676,-0.001,0.194
665,77.938,73.811,-0.001,0.193
666,77.764,72.107,-0.001,0.192
667,77.618,70.497,0,0.193
668,77.531,69.136,0,0.195
669,77.394,67.996,0,0.195
670,77.268,67.107,0,0.194
671,77.134,66.458,0,0.192
672,77.073,66.011,-0.001,0.195
673,76.969,65.864,0,0.195
674,76.855,65.937,0,0.196
675,76.794,66.269,0,0.193
676,76.827,66.862,0,0.193
677,76.873,67.699,0,0.195
678,76.911,68.795,-0.001,0.196
679,76.906,70.037,-0.001,0.196
680,76.91,71.465,-0.001,0.196
681,76.913,73.044,-0.001,0.197
682,76.949,74.74,-0.001,0.196
683,76.99,76.561,-0.001,0.197
684,77.066,78.405,0,0.195
685,77.113,80.317,0,0.196
686,77.213,82.132,-0.001,0.194
687,77.267,83.812,-0.001,0.195
688,77.368,85.351,0,0.195
689,77.477,86.71,0,0.195
690,77.661,87.876,0,0.195
691,77.806,88.575,-0.001,0.195
692,77.979,88.922,-0.001,0.196
693,78.102,88.884,-0.001,0.198
694,78.344,88.622,0,0.198
695,78.482,87.914,-0.001,0.197
696,78.735,86.936,-0.001,0.196
697,78.89,85.699,-0.001,0.196
698,79.115,84.318,0,0.197
699,79.246,82.746,0,0.199
700,79.482,81.017,0,0.198
701,79.684,79.233,-0.001,0.198
702,79.934,77.476,-0.001,0.198
703,80.139,75.769,0,0.199
704,80.372,74.165,-0.001,0.198
705,80.566,72.618,-0.001,0.198
706,80.81,71.271,-0.001,0.199
707,81.006,70.065,0,0.2
708,81.257,69.056,0,0.201
709,81.476,68.171,0,0.199
710,81.808,67.533,0,0.199
711,82.09,67.05,0,0.199
712,82.397,66.803,0,0.2
713,82.673,66.636,0,0.201
714,82.98,66.725,0,0.2
715,83.313,66.998,0,0.199
716,83.556,67.45,0,0.2
717,83.879,68.081,-0.001,0.201
718,84.114,68.845,0,0.202
719,84.505,69.832,0,0.201
720,84.805,70.948,0,0.201
721,85.09,72.136,0,0.201
722,85.358,73.534,0,0.201
723,85.619,75.009,0,0.2
724,85.902,76.627,-0.001,0.2
725,86.127,78.171,-0.001,0.201
726,86.359,79.778,0,0.203
727,86.636,81.327,0,0.204
728,86.934,82.964,0,0.204
729,87.269,84.476,-0.001,0.202
730,87.589,85.94,-0.001,0.203
731,87.866,87.126,-0.001,0.203
732,88.067,88.157,0,0.202
733,88.264,89.028,0,0.201
734,88.508,89.603,0,0.203
735,88.822,89.954,-0.001,0.204
736,89.106,89.898,-0.001,0.202
737,89.412,89.722,-0.001,0.202
738,89.636,89.155,0,0.201
739,89.883,88.484,-0.001,0.204
740,90.015,87.502,0,0.203
741,90.205,86.434,0,0.204
742,90.387,85.129,-0.001,0.204
743,90.576,83.767,-0.001,0.203
744,90.814,82.307,-0.001,0.204
745,90.99,80.785,-0.001,0.205
746,91.131,79.23,0,0.208
747,91.225,77.716,0,0.206
748,91.273,76.169,-0.001,0.205
749,91.459,74.787,-0.001,0.205
750,91.48,73.466,0,0.204
751,91.739,72.349,0,0.205
752,91.764,71.229,-0.001,0.204
753,91.894,70.298,-0.001,0.204
754,91.85,69.476,-0.001,0.205
755,91.92,68.744,0,0.204
756,91.987,68.112,0,0.205
757,92.04,67.715,-0.001,0.206
758,92.046,67.467,-0.001,0.206
759,92.07,67.334,-0.001,0.208
760,92.111,67.29,0,0.208
761,92.145,67.435,-0.001,0.207
762,92.167,67.71,-0.001,0.205
763,92.103,68.055,-0.001,0.204
764,92.033,68.517,-0.001,0.206
765,91.985,69.095,-0.001,0.208
766,91.945,69.846,-0.001,0.208
767,91.948,70.761,-0.001,0.207
768,91.867,71.745,0,0.207
769,91.767,72.751,0,0.209
770,91.663,73.924,0,0.21
771,91.607,75.201,0,0.21
772,91.512,76.625,0,0.207
773,91.401,77.884,0,0.207
774,91.339,79.246,-0.001,0.208
775,91.28,80.632,-0.001,0.209
776,91.135,82.051,-0.001,0.209
777,90.886,83.418,-0.001,0.209
778,90.714,84.703,-0.001,0.209
779,90.587,85.962,-0.001,0.207
780,90.486,87.114,-0.001,0.209
781,90.294,88.111,-0.001,0.208
782,90.157,89.02,0,0.209
783,89.913,89.621,-0.001,0.207
784,89.821,90.207,-0.001,0.207
785,89.598,90.412,0,0.205
786,89.465,90.675,0,0.205
787,89.232,90.585,-0.001,0.203
788,89.003,90.365,-0.001,0.206
789,88.783,89.845,0,0.206
790,88.517,89.025,0,0.208
791,88.424,88.192,-0.001,0.21
792,88.251,87.299,-0.001,0.212
793,87.887,86.231,-0.001,0.211
794,87.556,85.02,-0.001,0.212
795,87.404,83.799,-0.001,0.212
796,87.358,82.636,-0.001,0.211
797,87.24,81.447,0,0.209
798,86.946,80.113,-0.001,0.206
799,86.705,78.823,-0.001,0.208
800,86.432,77.569,-0.001,0.21
801,86.126,76.314,0,0.213
802,85.977,75.119,-0.001,0.215
803,85.901,74.015,-0.001,0.213
804,85.735,72.931,-0.001,0.213
805,85.459,71.977,0,0.21
806,85.142,71.101,0,0.213
807,84.905,70.39,0,0.21
808,84.77,69.741,-0.001,0.214
809,84.515,69.204,-0.001,0.211
810,84.287,68.684,0,0.214
811,84.016,68.337,0,0.21
812,83.77,68.007,-0.001,0.213
813,83.639,67.898,0,0.213
814,83.359,67.665,0,0.214
815,83.124,67.554,0,0.213
816,82.925,67.627,-0.001,0.21
817,82.713,67.979,0,0.213
818,82.575,68.374,-0.001,0.216
819,82.309,68.754,-0.001,0.221
820,82.118,69.128,-0.001,0.219
821,81.924,69.725,-0.001,0.212
822,81.73,70.408,-0.001,0.212
823,81.737,71.224,0,0.212
824,81.64,72.005,-0.001,0.219
825,81.514,72.702,0,0.22
826,81.27,73.733,0,0.215
827,81.095,74.702,0.001,0.212
828,80.949,75.818,0.001,0.214
829,80.969,76.959,0.002,0.216
830,80.79,78.173,0.137,0.271
831,80.668,79.459,0.27,0.311
832,80.301,80.437,0.398,0.39
833,80.035,81.609,0.393,0.353
834,79.897,82.755,0.361,0.363
835,79.768,83.951,0.341,0.356
836,79.536,84.917,0.301,0.375
837,79.343,85.995,0.292,0.456
838,79.181,86.97,0.317,0.466
839,79.23,87.955,0.355,0.509
840,79.105,88.764,0.306,0.479
841,79.009,89.442,0.269,0.407
842,78.947,89.925,0.237,0.382
843,78.813,90.294,0.224,0.404
844,78.772,90.577,0.213,0.501
845,78.666,90.812,0.228,0.529
846,78.702,90.77,0.327,0.521
847,78.586,90.654,0.387,0.418
848,78.59,90.4,0.33,0.424
849,78.481,90.027,0.33,0.415
850,78.521,89.465,0.245,0.501
851,78.328,88.862,0.295,0.458
852,78.273,88.072,0.224,0.388
853,78.101,87.332,0.334,0.375
854,78.19,86.449,0.332,0.382
855,78.109,85.613,0.387,0.339
856,78.131,84.542,0.303,0.277
857,78.008,83.536,0.318,0.299
858,78.031,82.426,0.22,0.387
859,77.99,81.322,0.273,0.475
860,77.884,80.062,0.215,0.489
861,77.798,78.884,0.335,0.436
862,77.808,77.845,0.281,0.428
863,77.81,76.922,0.329,0.404
864,77.9,75.976,0.363,0.389
865,77.907,75.074,0.282,0.397
866,77.931,74.019,0.17,0.391
867,77.836,73.129,0.057,0.458
868,77.819,72.28,0.096,0.449
869,77.864,71.707,0.176,0.472
870,77.881,71.07,0.23,0.404
871,77.883,70.466,0.187,0.333
872,77.877,69.813,0.187,0.338
873,77.988,69.301,0.128,0.395
874,78.01,68.93,0.202,0.427
875,78.191,68.719,0.229,0.365
876,78.276,68.544,0.257,0.419
877,78.354,68.371,0.278,0.485
878,78.343,68.135,0.226,0.509
879,78.3,68.063,0.143,0.46
880,78.312,68.033,0.142,0.396
881,78.365,68.137,0.108,0.409
882,78.469,68.299,0.199,0.437
883,78.579,68.484,0.18,0.469
884,78.639,68.772,0.261,0.512
885,78.684,69.053,0.224,0.529
886,78.722,69.458,0.255,0.62
887,78.815,69.951,0.227,0.658
888,78.913,70.479,0.247,0.798
889,78.947,71.042,0.228,0.971
890,78.984,71.604,0.251,1.214
891,78.98,72.261,0.287,1.441
892,79.084,73.012,0.261,1.674
893,79.192,73.796,0.199,2.007
894,79.398,74.652,0.161,2.368
895,79.493,75.541,0.195,2.788
896,79.54,76.422,0.197,3.246
897,79.62,77.417,0.181,3.755
898,79.751,78.408,0.22,4.35
899,79.944,79.476,0.24,4.948
900,80.033,80.398,0.224,5.533
901,80.228,81.404,0.115,6.099
902,80.309,82.386,0.129,6.682
903,80.439,83.364,0.159,7.274
904,80.513,84.303,0.133,7.785
905,80.685,85.229,0.096,8.269
906,80.809,86.139,0.128,8.794
907,81.051,86.996,0.141,9.316
908,81.117,87.771,0.157,9.782
909,81.323,88.522,0.13,10.178
910,81.394,89.155,0.174,10.507
911,81.645,89.811,0.212,10.752
912,81.713,90.275,0.182,10.982
913,81.849,90.669,0.159,11.228
914,81.91,90.941,0.124,11.52
915,82.108,91.189,0.169,11.719
916,82.22,91.26,0.192,11.907
917,82.394,91.203,0.218,12.151
918,82.499,91.108,0.212,12.431
919,82.658,90.945,0.189,12.727
920,82.846,90.753,0.16,13.056
921,83.026,90.394,0.143,13.411
922,83.132,89.946,0.135,13.794
923,83.216,89.364,0.099,14.118
924,83.297,88.751,0.11,14.397
925,83.46,88.094,0.128,14.676
926,83.579,87.383,0.179,14.953
927,83.708,86.577,0.136,15.155
928,83.861,85.751,0.151,15.323
929,84.089,84.862,0.139,15.444
930,84.314,84.038,0.147,15.594
931,84.489,83.167,0.145,15.699
932,84.618,82.307,0.159,15.804
933,84.794,81.372,0.159,15.92
934,84.97,80.491,0.166,15.982
935,85.129,79.598,0.145,16.037
936,85.307,78.693,0.136,16.07
937,85.454,77.833,0.113,16.16
938,85.607,77.024,0.117,16.247
939,85.688,76.275,0.105,16.306
940,85.839,75.466,0.1,16.384
941,86.016,74.718,0.085,16.442
942,86.206,74.036,0.115,16.55
943,86.386,73.345,0.131,16.615
944,86.474,72.614,0.16,16.663
945,86.586,71.906,0.175,16.692
946,86.763,71.349,0.15,16.776
947,86.954,70.864,0.106,16.804
948,87.097,70.406,0.114,16.858
949,87.227,69.983,0.117,16.887
950,87.358,69.567,0.182,16.955
951,87.508,69.204,0.138,17.032
952,87.618,68.86,0.141,17.064
953,87.755,68.615,0.137,17.146
954,87.904,68.44,0.177,17.175
955,87.971,68.326,0.176,17.246
956,88.129,68.282,0.151,17.27
957,88.229,68.245,0.155,17.308
958,88.356,68.248,0.183,17.341
959,88.389,68.267,0.194,17.373
960,88.58,68.377,0.17,17.404
961,88.752,68.529,0.177,17.385
962,88.907,68.75,0.193,17.425
963,88.956,68.998,0.224,17.466
964,89.003,69.282,0.242,17.506
965,89.126,69.654,0.263,17.503
966,89.26,70.032,0.295,17.491
967,89.428,70.495,0.333,17.513
968,89.529,70.898,0.337,17.509
969,89.643,71.375,0.342,17.51
970,89.752,71.909,0.312,17.499
971,89.854,72.479,0.32,17.509
972,89.922,73.089,0.335,17.503
973,89.962,73.612,0.371,17.503
974,90.105,74.237,0.403,17.527
975,90.194,74.875,0.413,17.544
976,90.357,75.631,0.459,17.551
977,90.416,76.344,0.477,17.546
978,90.543,77.097,0.508,17.513
979,90.599,77.823,0.524,17.485
980,90.636,78.58,0.583,17.487
981,90.659,79.387,0.645,17.515
982,90.714,80.203,0.677,17.546
983,90.75,81.013,0.714,17.535
984,90.839,81.837,0.723,17.559
985,90.869,82.632,0.79,17.531
986,90.935,83.438,0.834,17.532
987,90.93,84.152,0.906,17.494
988,90.99,84.934,0.951,17.511
989,91.065,85.695,1.028,17.519
990,91.117,86.478,1.12,17.552
991,91.138,87.123,1.227,17.555
992,91.096,87.784,1.336,17.552
993,91.17,88.423,1.38,17.541
994,91.188,89.038,1.447,17.536
995,91.257,89.589,1.509,17.55
996,91.209,90.051,1.631,17.605
997,91.236,90.534,1.712,17.647
998,91.234,90.91,1.782,17.642
999,91.265,91.194,1.875,17.642
1000,91.285,91.397,1.984,17.662
1001,91.334,91.551,2.111,17.695
1002,91.333,91.686,2.257,17.697
1003,91.374,91.704,2.388,17.718
1004,91.397,91.684,2.54,17.726
1005,91.421,91.529,2.675,17.719
1006,91.445,91.384,2.837,17.726
1007,91.464,91.142,2.994,17.711
1008,91.46,90.809,3.157,17.732
1009,91.457,90.405,3.303,17.73
1010,91.457,89.969,3.473,17.777
1011,91.437,89.55,3.639,17.78
1012,91.349,89.016,3.822,17.784
1013,91.226,88.445,4.045,17.764
1014,91.203,87.841,4.251,17.76
1015,91.173,87.222,4.493,17.756
1016,91.155,86.512,4.691,17.779
1017,91.117,85.783,4.924,17.799
1018,91.048,85.063,5.159,17.802
1019,91.05,84.366,5.391,17.826
1020,90.995,83.632,5.64,17.84
1021,90.966,82.877,5.864,17.842
1022,90.875,82.109,6.137,17.809
1023,90.798,81.307,6.451,17.774
1024,90.691,80.493,6.76,17.765
1025,90.601,79.725,7.058,17.794
1026,90.555,79.007,7.34,17.823
1027,90.529,78.315,7.675,17.831
1028,90.471,77.6,7.986,17.824
1029,90.366,76.928,8.303,17.786
1030,90.257,76.217,8.632,17.768
1031,90.17,75.53,9.007,17.72
1032,90.062,74.812,9.367,17.718
1033,90.034,74.279,9.72,17.731
1034,89.972,73.759,10.058,17.73
1035,89.922,73.289,10.424,17.731
1036,89.823,72.771,10.809,17.729
1037,89.736,72.271,11.204,17.729
1038,89.697,71.862,11.588,17.705
1039,89.569,71.4,11.994,17.652
1040,89.496,71.03,12.384,17.621
1041,89.413,70.652,12.799,17.607
1042,89.387,70.35,13.184,17.598
1043,89.32,70.018,13.602,17.604
1044,89.248,69.762,14.017,17.602
1045,89.164,69.511,14.439,17.621
1046,89.09,69.35,14.852,17.628
1047,88.994,69.181,15.261,17.608
1048,88.924,69.066,15.669,17.614
1049,88.837,68.916,16.112,17.584
1050,88.756,68.819,16.543,17.599
1051,88.643,68.736,16.975,17.576
1052,88.532,68.721,17.375,17.59
1053,88.434,68.685,17.76,17.609
1054,88.308,68.716,18.17,17.618
1055,88.187,68.7,18.596,17.638
1056,88.059,68.765,19.041,17.614
1057,87.968,68.807,19.5,17.608
1058,87.871,68.927,19.937,17.579
1059,87.682,69.038,20.401,17.598
1060,87.55,69.24,20.823,17.589
1061,87.403,69.461,21.252,17.598
1062,87.325,69.688,21.647,17.578
1063,87.179,69.904,22.001,17.606
1064,87.082,70.192,22.32,17.614
1065,86.921,70.516,22.593,17.632
1066,86.754,70.903,22.861,17.639
1067,86.557,71.296,23.135,17.63
1068,86.435,71.717,23.435,17.632
1069,86.338,72.181,23.744,17.632
1070,86.257,72.641,23.994,17.624
1071,86.155,73.113,24.209,17.62
1072,86.076,73.604,24.438,17.619
1073,85.933,74.13,24.706,17.625
1074,85.837,74.751,24.998,17.631
1075,85.766,75.434,25.263,17.652
1076,85.703,76.119,25.527,17.664
1077,85.636,76.721,25.768,17.672
1078,85.551,77.339,25.987,17.627
1079,85.456,77.962,26.196,17.639
1080,85.341,78.659,26.425,17.634
1081,85.212,79.301,26.636,17.637
1082,85.188,80.069,26.833,17.632
1083,85.083,80.723,27.03,17.61
1084,85,81.418,27.264,17.627
1085,84.858,82.014,27.502,17.591
1086,84.772,82.756,27.703,17.591
1087,84.665,83.406,27.897,17.584
1088,84.579,84.097,28.083,17.592
1089,84.447,84.659,28.313,17.579
1090,84.373,85.299,28.499,17.563
1091,84.241,85.857,28.697,17.556
1092,84.178,86.498,28.864,17.562
1093,84.057,87.049,29.078,17.535
1094,83.933,87.614,29.264,17.537
1095,83.815,88.109,29.432,17.538
1096,83.685,88.55,29.565,17.547
1097,83.582,88.94,29.718,17.547
1098,83.49,89.385,29.885,17.55
1099,83.384,89.8,30.114,17.524
1100,83.271,90.261,30.293,17.498
1101,83.127,90.51,30.454,17.463
1102,82.977,90.797,30.58,17.468
1103,82.848,90.994,30.756,17.466
1104,82.715,91.252,30.904,17.462
1105,82.582,91.439,31.052,17.469
1106,82.41,91.519,31.212,17.438
1107,82.294,91.601,31.373,17.411
1108,82.192,91.65,31.529,17.406
1109,82.107,91.647,31.633,17.411
1110,81.99,91.575,31.809,17.432
1111,81.896,91.49,31.96,17.38
1112,81.808,91.412,32.12,17.382
1113,81.663,91.226,32.242,17.354
1114,81.546,90.972,32.36,17.385
1115,81.456,90.693,32.469,17.366
1116,81.447,90.482,32.582,17.393
1117,81.351,90.157,32.714,17.362
1118,81.271,89.818,32.856,17.382
1119,81.155,89.391,32.991,17.358
1120,81.114,89.045,33.141,17.369
1121,81.057,88.669,33.299,17.344
1122,81.02,88.203,33.419,17.325
1123,80.94,87.687,33.502,17.315
1124,80.891,87.136,33.59,17.278
1125,80.795,86.605,33.688,17.273
1126,80.777,86.067,33.814,17.257
1127,80.741,85.539,33.914,17.269
1128,80.709,85.042,34.021,17.26
1129,80.652,84.502,34.132,17.248
1130,80.565,83.949,34.237,17.265
1131,80.496,83.374,34.36,17.272
1132,80.442,82.824,34.481,17.289
1133,80.39,82.243,34.625,17.29
1134,80.347,81.686,34.755,17.293
1135,80.29,81.125,34.85,17.272
1136,80.207,80.571,34.936,17.238
1137,80.168,80.016,34.999,17.236
1138,80.111,79.45,35.115,17.252
1139,80.055,78.875,35.212,17.29
1140,79.99,78.331,35.32,17.275
1141,79.874,77.759,35.376,17.279
1142,79.786,77.226,35.475,17.264
1143,79.672,76.649,35.567,17.27
1144,79.599,76.101,35.703,17.271
1145,79.524,75.604,35.825,17.269
1146,79.472,75.087,35.96,17.255
1147,79.423,74.617,36.042,17.271
1148,79.366,74.076,36.119,17.234
1149,79.272,73.616,36.186,17.23
1150,79.149,73.127,36.27,17.21
1151,79.032,72.669,36.336,17.246
1152,78.982,72.264,36.475,17.243
1153,78.915,71.874,36.563,17.249
1154,78.933,71.531,36.68,17.237
1155,78.817,71.143,36.683,17.224
1156,78.719,70.762,36.76,17.193
1157,78.603,70.437,36.829,17.192
1158,78.53,70.12,36.907,17.213
1159,78.499,69.882,37.023,17.214
1160,78.377,69.547,37.096,17.199
1161,78.384,69.34,37.201,17.186
1162,78.324,69.106,37.251,17.185
1163,78.341,68.991,37.359,17.175
1164,78.26,68.805,37.445,17.148
1165,78.235,68.716,37.515,17.116
1166,78.242,68.65,37.591,17.122
1167,78.282,68.61,37.65,17.148
1168,78.251,68.527,37.73,17.142
1169,78.211,68.479,37.796,17.146
1170,78.192,68.497,37.94,17.113
1171,78.213,68.565,38.03,17.131
1172,78.229,68.614,38.113,17.107
1173,78.21,68.712,38.193,17.141
1174,78.22,68.774,38.294,17.131
1175,78.193,68.886,38.406,17.122
1176,78.186,68.991,38.493,17.094
1177,78.158,69.157,38.595,17.044
1178,78.168,69.315,38.65,17.031
1179,78.168,69.446,38.737,17.009
1180,78.158,69.606,38.782,17.027
1181,78.152,69.82,38.805,17.011
1182,78.171,70.116,38.811,17.02
1183,78.223,70.361,38.838,17.005
1184,78.262,70.616,38.865,17.007
1185,78.237,70.839,38.897,16.956
1186,78.264,71.159,38.893,16.99
1187,78.217,71.421,38.924,16.967
1188,78.216,71.7,38.902,16.975
1189,78.136,71.971,38.926,16.934
1190,78.151,72.32,38.984,16.935
1191,78.116,72.651,39.007,16.925
1192,78.113,73.017,39.017,16.884
1193,78.063,73.371,38.993,16.888
1194,78.02,73.714,38.981,16.871
1195,78.014,74.069,39.024,16.878
1196,77.975,74.437,39.024,16.88
1197,77.986,74.831,39.088,16.883
1198,77.914,75.191,39.052,16.863
1199,77.879,75.546,39.032,16.826
1200,77.857,75.969,38.971,16.852
1201,77.873,76.398,38.974,16.843
1202,77.82,76.854,38.995,16.804
1203,77.741,77.266,38.976,16.734
1204,77.692,77.778,38.978,16.742
1205,77.705,78.253,38.996,16.787
1206,77.728,78.76,39.036,16.815
1207,77.716,79.199,39.053,16.814
1208,77.744,79.705,39.075,16.772
1209,77.733,80.228,39.094,16.768
1210,77.733,80.742,39.113,16.764
1211,77.742,81.257,39.089,16.75
1212,77.806,81.752,39.114,16.753
1213,77.873,82.249,39.104,16.74
1214,77.841,82.786,39.101,16.738
1215,77.845,83.277,39.114,16.689
1216,77.815,83.874,39.13,16.687
1217,77.856,84.414,39.15,16.691
1218,77.896,85.062,39.15,16.705
1219,77.883,85.502,39.153,16.689
1220,77.859,85.971,39.117,16.643
1221,77.834,86.359,39.086,16.621
1222,77.937,86.913,39.088,16.633
1223,78.01,87.419,39.122,16.675
1224,78.118,87.961,39.13,16.685
1225,78.161,88.36,39.096,16.656
1226,78.31,88.82,39.093,16.653
1227,78.33,89.148,39.082,16.627
1228,78.42,89.552,39.07,16.64
1229,78.406,89.835,39.074,16.631
1230,78.418,90.199,39.077,16.653
1231,78.4,90.511,39.096,16.637
1232,78.431,90.762,39.087,16.604
1233,78.429,91.006,39.073,16.581
1234,78.45,91.217,39.087,16.56
1235,78.469,91.517,39.048,16.606
1236,78.6,91.689,39.064,16.614
1237,78.716,91.866,39.109,16.651
1238,78.804,91.894,39.142,16.642
1239,78.831,91.973,39.157,16.66
1240,78.808,91.984,39.075,16.637
1241,78.86,92.05,39.066,16.575
1242,78.9,92.06,39.069,16.543
1243,78.955,92.039,39.068,16.528
1244,78.931,91.971,39.049,16.567
1245,78.97,91.919,39.018,16.572
1246,79.03,91.826,39.027,16.594
1247,79.129,91.676,39.071,16.571
1248,79.159,91.501,39.074,16.578
1249,79.203,91.372,39.132,16.527
1250,79.181,91.218,39.139,16.561
1251,79.259,90.983,39.146,16.546
1252,79.208,90.707,39.095,16.584
1253,79.273,90.48,39.074,16.532
1254,79.257,90.195,39.067,16.513
1255,79.399,89.902,39.051,16.483
1256,79.436,89.548,39.009,16.488
1257,79.48,89.245,39.008,16.499
1258,79.501,88.861,39.034,16.507
1259,79.547,88.466,39.079,16.519
1260,79.577,88.02,39.075,16.515
1261,79.532,87.562,39.05,16.495
1262,79.569,87.085,38.986,16.475
1263,79.668,86.678,38.986,16.429
1264,79.789,86.274,38.974,16.431
1265,79.812,85.852,38.986,16.417
1266,79.806,85.351,38.952,16.437
1267,79.793,84.828,38.96,16.399
1268,79.803,84.348,38.985,16.395
1269,79.847,83.895,38.997,16.373
1270,79.909,83.412,38.988,16.368
1271,79.988,82.878,38.99,16.379
1272,80.035,82.436,39.036,16.385
1273,80.038,81.982,39.07,16.386
1274,80.088,81.585,38.999,16.406
1275,80.122,81.076,38.991,16.391
1276,80.226,80.666,38.976,16.377
1277,80.283,80.172,39.073,16.334
1278,80.404,79.701,39.065,16.323
1279,80.493,79.242,39.089,16.348
1280,80.577,78.829,39.101,16.307
1281,80.556,78.366,39.091,16.323
1282,80.583,77.893,39.063,16.349
1283,80.685,77.442,39.051,16.409
1284,80.821,77.056,39.025,16.368
1285,80.854,76.622,39.035,16.328
1286,80.858,76.223,39.013,16.265
1287,80.862,75.829,39.014,16.302
1288,81.004,75.488,38.992,16.272
1289,81.099,75.158,39.032,16.297
1290,81.204,74.786,39.05,16.303
1291,81.259,74.452,39.102,16.342
1292,81.336,74.103,39.115,16.338
1293,81.451,73.793,39.145,16.291
1294,81.523,73.441,39.125,16.277
1295,81.64,73.108,39.071,16.304
1296,81.643,72.753,39.084,16.308
1297,81.664,72.526,39.054,16.273
1298,81.71,72.273,39.097,16.189
1299,81.759,72.045,39.088,16.173
1300,81.903,71.772,39.073,16.165
1301,81.93,71.487,39.055,16.203
1302,82.088,71.316,39.076,16.227
1303,82.082,71.048,39.102,16.222
1304,82.231,70.865,39.132,16.241
1305,82.266,70.633,39.118,16.212
1306,82.432,70.488,39.17,16.191
1307,82.411,70.286,39.14,16.121
1308,82.49,70.07,39.09,16.148
1309,82.566,69.878,39.06,16.13
1310,82.71,69.749,39.129,16.159
1311,82.831,69.662,39.191,16.128
1312,82.877,69.579,39.233,16.148
1313,82.915,69.463,39.168,16.167
1314,82.949,69.338,39.151,16.216
1315,83.021,69.232,39.173,16.249
1316,83.084,69.194,39.217,16.228
1317,83.107,69.128,39.232,16.167
1318,83.194,69.055,39.196,16.179
1319,83.235,68.997,39.191,16.186
1320,83.399,69.061,39.201,16.226
1321,83.438,69.092,39.21,16.195
1322,83.57,69.014,39.209,16.148
1323,83.616,68.928,39.221,16.163
1324,83.709,68.969,39.26,16.175
1325,83.753,69.027,39.29,16.17
1326,83.775,69.081,39.283,16.161
1327,83.841,69.089,39.258,16.092
1328,83.869,69.109,39.227,16.083
1329,83.889,69.106,39.275,16.004
1330,83.845,69.163,39.281,16.08
1331,83.936,69.359,39.296,16.098
1332,83.988,69.474,39.287,16.136
1333,84.086,69.58,39.31,16.136
1334,84.055,69.675,39.305,16.109
1335,84.166,69.836,39.319,16.096
1336,84.233,70.018,39.361,16.055
1337,84.348,70.097,39.336,16.074
1338,84.41,70.292,39.291,16.132
1339,84.432,70.476,39.231,16.127
1340,84.384,70.644,39.234,16.167
1341,84.309,70.82,39.194,16.148
1342,84.307,70.983,39.228,16.161
1343,84.406,71.279,39.297,16.131
1344,84.484,71.531,39.353,16.089
1345,84.59,71.888,39.402,16.072
1346,84.649,72.144,39.397,16.075
1347,84.744,72.349,39.438,16.12
1348,84.841,72.591,39.433,16.17
1349,84.968,72.916,39.463,16.181
1350,84.991,73.162,39.439,16.131
1351,85.032,73.375,39.432,16.087
1352,85.011,73.62,39.396,16.065
1353,85.137,74.057,39.434,16.057
1354,85.117,74.38,39.409,16.066
1355,85.242,74.659,39.413,16.099
1356,85.329,74.968,39.411,16.116
1357,85.446,75.27,39.424,16.095
1358,85.482,75.549,39.442,16.089
1359,85.514,75.882,39.36,16.058
1360,85.664,76.33,39.376,16.038
1361,85.763,76.845,39.355,16.104
1362,85.776,77.165,39.436,16.113
1363,85.808,77.597,39.428,16.143
1364,85.939,77.94,39.422,16.029
1365,86.061,78.416,39.46,16.004
1366,86.141,78.722,39.482,15.989
1367,86.142,79.173,39.528,16.065
1368,86.264,79.568,39.49,16.11
1369,86.33,79.919,39.449,16.061
1370,86.447,80.335,39.524,16.007
1371,86.493,80.763,39.556,16.042
1372,86.575,81.244,39.637,16.098
1373,86.584,81.571,39.537,16.079
1374,86.65,81.952,39.559,15.976
1375,86.661,82.33,39.548,15.946
1376,86.755,82.668,39.551,15.971
1377,86.853,82.998,39.527,16.014
1378,86.965,83.357,39.546,16.025
1379,87.096,83.932,39.658,15.973
1380,87.167,84.346,39.654,15.972
1381,87.238,84.747,39.666,15.95
1382,87.187,84.944,39.581,16.034
1383,87.155,85.223,39.647,16.035
1384,87.153,85.512,39.656,16.041
1385,87.234,85.902,39.724,15.952
1386,87.319,86.43,39.727,15.898
1387,87.429,86.802,39.665,15.935
1388,87.365,87.254,39.557,15.966
1389,87.302,87.547,39.525,16.047
1390,87.284,88.003,39.625,15.976
1391,87.418,88.176,39.748,15.969
1392,87.58,88.505,39.794,15.904
1393,87.676,88.848,39.77,15.986
1394,87.644,89.259,39.816,15.994
1395,87.586,89.615,39.834,16.039
1396,87.495,89.758,39.811,16.051
1397,87.616,89.963,39.775,16.018
1398,87.639,90.075,39.852,16.04
1399,87.73,90.43,39.993,15.968
1400,87.704,90.71,40.113,15.97